# wavelength[angstrom]  transmittance
 5000.0 -0.0008
 5005.0 -0.0005
 5010.0 -0.0006
 5015.0 -0.0007
 5020.0 -0.0013
 5025.0 -0.0004
 5030.0 -0.0010
 5035.0 -0.0008
 5040.0 -0.0006
 5045.0 -0.0008
 5050.0 -0.0009
 5055.0 -0.0003
 5060.0  0.0000
 5065.0 -0.0008
 5070.0  0.0008
 5075.0  0.0009
 5080.0  0.0028
 5085.0  0.0048
 5090.0  0.0119
 5095.0  0.0244
 5100.0  0.0544
 5105.0  0.1182
 5110.0  0.2261
 5115.0  0.3846
 5120.0  0.5544
 5125.0  0.7107
 5130.0  0.8150
 5135.0  0.8736
 5140.0  0.8875
 5145.0  0.8931
 5150.0  0.8956
 5155.0  0.9022
 5160.0  0.9010
 5165.0  0.8973
 5170.0  0.8831
 5175.0  0.8520
 5180.0  0.7922
 5185.0  0.6720
 5190.0  0.5287
 5195.0  0.3694
 5200.0  0.2269
 5205.0  0.1232
 5210.0  0.0598
 5215.0  0.0298
 5220.0  0.0155
 5225.0  0.0080
 5230.0  0.0043
 5235.0  0.0026
 5240.0  0.0005
 5245.0  0.0001
 5250.0 -0.0005
 5255.0 -0.0006
 5260.0 -0.0009
 5265.0  0.0003
 5270.0 -0.0014
 5275.0 -0.0007
 5280.0 -0.0008
 5285.0  0.0008
 5290.0 -0.0011
 5295.0 -0.0012
 5300.0 -0.0006